; C:\DIFFDAT1\MK\Auftragsmessungen\Schmeiﬂer\Polymer Glas\2010_12_01\P3HTrr101130_1.raw(Diffrac Plus V1.01 file) converted by XCH V1.0
_FILEVERSION=2
_SAMPLE='P3HTrr101130'
_SITE='Deutschland'
_USER='LS Leichtbaukeramik'
_ATTACHMENTS_CODE=0
_GONIOMETER_RADIUS=250.000000
_FIXED_DIVSLIT=0.600000
_FIXED_SAMPLESLIT=0.000000
_FIXED_DETSLIT=10.500000
_MONOCHROMATOR=0
; None
_THIN_FILM='N'
_BETA_FILTER='Y'
_FIXED_ANTISLIT=6.760000
_ANALYZER_CODE=0
; None
_DATEMEASURED='01-Dec-2010 11:00:32'
_WL_UNIT='A'
_WL1=1.540600
_WL2=1.544390
_WL3=1.392220
_WLRATIO=0.500000
_ANODE='Cu'
; (Data for Range number 1)
_DRIVE='2THETA'
_STEPTIME=0.500000
_STEPSIZE=0.020000
_STEPMODE='C'
_START=5.000000
_THETA=3.000000
_2THETA=5.000000
_KHI=0.000000
_PHI=0.000000
_X=0.000000
_Y=0.000000
_Z=0.000000
_DIVERGENCE=0.499000
_ANTISCATTER=0.499000
_DETECTOR=1
; S.C.
_HV=671.000000
_GAIN=80.000000
_LLD=0.600000
_ULD=1.800000
_DETECTORSLIT='unkn'
_AUX1=0.000000
_AUX2=0.000000
_AUX3=0.000000
_TIMESTARTED=19.000000
_TEMP_RATE=-1.000000
_TEMP_DELAY=-1.000000
_KV=40
_MA=40
_RANGE_WL=1.540600
_3DPLANE=0
_2THETACOUNTS
5.0000	2552
5.0200	2575
5.0400	3106
5.0600	3244
5.0800	2878
5.1000	2990
5.1200	3375
5.1400	3788
5.1600	3242
5.1800	3279
5.2000	3855
5.2200	4495
5.2400	3674
5.2600	3884
5.2800	4336
5.3000	4912
5.3200	4297
5.3400	4589
5.3600	4621
5.3800	5153
5.4000	4594
5.4200	4852
5.4400	4450
5.4600	4628
5.4800	4448
5.5000	4740
5.5200	3937
5.5400	3910
5.5600	3871
5.5800	4112
5.6000	3274
5.6200	3217
5.6400	3117
5.6600	3266
5.6800	2556
5.7000	2489
5.7200	2354
5.7400	2566
5.7600	2034
5.7800	1956
5.8000	1860
5.8200	2036
5.8400	1573
5.8600	1544
5.8800	1487
5.9000	1662
5.9200	1342
5.9400	1284
5.9600	1161
5.9800	1282
6.0000	1112
6.0200	1128
6.0400	1055
6.0600	1097
6.0800	961
6.1000	936
6.1200	938
6.1400	1059
6.1600	855
6.1800	903
6.2000	833
6.2200	885
6.2400	797
6.2600	802
6.2800	777
6.3000	778
6.3200	796
6.3400	796
6.3600	727
6.3800	760
6.4000	704
6.4200	709
6.4400	704
6.4600	734
6.4800	678
6.5000	706
6.5200	672
6.5400	659
6.5600	628
6.5800	646
6.6000	670
6.6200	680
6.6400	636
6.6600	619
6.6800	654
6.7000	588
6.7200	640
6.7400	607
6.7600	594
6.7800	590
6.8000	598
6.8200	613
6.8400	561
6.8600	591
6.8800	582
6.9000	534
6.9200	585
6.9400	550
6.9600	564
6.9800	621
7.0000	576
7.0200	593
7.0400	574
7.0600	519
7.0800	568
7.1000	489
7.1200	524
7.1400	556
7.1600	555
7.1800	525
7.2000	525
7.2200	540
7.2400	502
7.2600	543
7.2800	518
7.3000	554
7.3200	537
7.3400	508
7.3600	511
7.3800	521
7.4000	526
7.4200	502
7.4400	485
7.4600	514
7.4800	556
7.5000	491
7.5200	477
7.5400	508
7.5600	520
7.5800	505
7.6000	487
7.6200	498
7.6400	485
7.6600	518
7.6800	494
7.7000	481
7.7200	509
7.7400	481
7.7600	467
7.7800	487
7.8000	524
7.8200	486
7.8400	493
7.8600	504
7.8800	503
7.9000	451
7.9200	466
7.9400	483
7.9600	485
7.9800	484
8.0000	526
8.0200	448
8.0400	482
8.0600	440
8.0800	486
8.1000	460
8.1200	491
8.1400	442
8.1600	465
8.1800	496
8.2000	484
8.2200	467
8.2400	441
8.2600	473
8.2800	544
8.3000	482
8.3200	471
8.3400	520
8.3600	472
8.3800	503
8.4000	505
8.4200	450
8.4400	534
8.4600	532
8.4800	444
8.5000	466
8.5200	483
8.5400	542
8.5600	494
8.5800	490
8.6000	514
8.6200	535
8.6400	491
8.6600	511
8.6800	543
8.7000	526
8.7200	504
8.7400	537
8.7600	512
8.7800	523
8.8000	475
8.8200	502
8.8400	539
8.8600	572
8.8800	538
8.9000	529
8.9200	619
8.9400	589
8.9600	561
8.9800	515
9.0000	565
9.0200	588
9.0400	514
9.0600	545
9.0800	615
9.1000	605
9.1200	546
9.1400	610
9.1600	608
9.1800	604
9.2000	594
9.2200	539
9.2400	628
9.2600	617
9.2800	566
9.3000	599
9.3200	677
9.3400	610
9.3600	548
9.3800	569
9.4000	646
9.4200	585
9.4400	607
9.4600	589
9.4800	616
9.5000	591
9.5200	605
9.5400	544
9.5600	626
9.5800	628
9.6000	601
9.6200	557
9.6400	638
9.6600	603
9.6800	569
9.7000	617
9.7200	636
9.7400	642
9.7600	564
9.7800	578
9.8000	594
9.8200	605
9.8400	559
9.8600	614
9.8800	628
9.9000	612
9.9200	549
9.9400	561
9.9600	589
9.9800	630
10.0000	561
10.0200	569
10.0400	582
10.0600	586
10.0800	583
10.1000	566
10.1200	613
10.1400	626
10.1600	555
10.1800	605
10.2000	602
10.2200	610
10.2400	606
10.2600	582
10.2800	575
10.3000	603
10.3200	541
10.3400	605
10.3600	605
10.3800	675
10.4000	607
10.4200	592
10.4400	598
10.4600	656
10.4800	594
10.5000	601
10.5200	703
10.5400	642
10.5600	637
10.5800	622
10.6000	646
10.6200	688
10.6400	614
10.6600	664
10.6800	670
10.7000	717
10.7200	632
10.7400	643
10.7600	612
10.7800	674
10.8000	714
10.8200	695
10.8400	689
10.8600	621
10.8800	618
10.9000	658
10.9200	635
10.9400	657
10.9600	581
10.9800	608
11.0000	615
11.0200	570
11.0400	540
11.0600	605
11.0800	549
11.1000	537
11.1200	550
11.1400	542
11.1600	519
11.1800	511
11.2000	510
11.2200	500
11.2400	470
11.2600	473
11.2800	447
11.3000	449
11.3200	438
11.3400	469
11.3600	419
11.3800	447
11.4000	457
11.4200	426
11.4400	425
11.4600	417
11.4800	437
11.5000	387
11.5200	427
11.5400	421
11.5600	363
11.5800	418
11.6000	369
11.6200	387
11.6400	376
11.6600	364
11.6800	373
11.7000	369
11.7200	340
11.7400	340
11.7600	334
11.7800	378
11.8000	374
11.8200	340
11.8400	329
11.8600	328
11.8800	341
11.9000	336
11.9200	315
11.9400	336
11.9600	316
11.9800	326
12.0000	312
12.0200	314
12.0400	320
12.0600	312
12.0800	284
12.1000	328
12.1200	315
12.1400	279
12.1600	277
12.1800	354
12.2000	289
12.2200	271
12.2400	291
12.2600	321
12.2800	298
12.3000	330
12.3200	269
12.3400	282
12.3600	293
12.3800	315
12.4000	296
12.4200	270
12.4400	318
12.4600	276
12.4800	272
12.5000	283
12.5200	289
12.5400	287
12.5600	276
12.5800	268
12.6000	307
12.6200	251
12.6400	269
12.6600	280
12.6800	262
12.7000	246
12.7200	238
12.7400	257
12.7600	285
12.7800	259
12.8000	264
12.8200	267
12.8400	295
12.8600	255
12.8800	308
12.9000	249
12.9200	246
12.9400	247
12.9600	254
12.9800	271
13.0000	238
13.0200	276
13.0400	227
13.0600	254
13.0800	274
13.1000	265
13.1200	241
13.1400	244
13.1600	285
13.1800	225
13.2000	247
13.2200	253
13.2400	235
13.2600	241
13.2800	267
13.3000	247
13.3200	282
13.3400	224
13.3600	248
13.3800	263
13.4000	240
13.4200	275
13.4400	266
13.4600	241
13.4800	258
13.5000	236
13.5200	216
13.5400	249
13.5600	266
13.5800	268
13.6000	228
13.6200	263
13.6400	254
13.6600	241
13.6800	256
13.7000	278
13.7200	242
13.7400	267
13.7600	219
13.7800	272
13.8000	252
13.8200	218
13.8400	243
13.8600	250
13.8800	239
13.9000	239
13.9200	256
13.9400	248
13.9600	245
13.9800	270
14.0000	243
14.0200	247
14.0400	279
14.0600	266
14.0800	257
14.1000	247
14.1200	247
14.1400	239
14.1600	281
14.1800	271
14.2000	247
14.2200	288
14.2400	256
14.2600	276
14.2800	250
14.3000	272
14.3200	304
14.3400	277
14.3600	250
14.3800	282
14.4000	245
14.4200	262
14.4400	266
14.4600	261
14.4800	285
14.5000	284
14.5200	304
14.5400	253
14.5600	276
14.5800	286
14.6000	296
14.6200	284
14.6400	305
14.6600	304
14.6800	260
14.7000	287
14.7200	293
14.7400	274
14.7600	254
14.7800	282
14.8000	276
14.8200	272
14.8400	254
14.8600	276
14.8800	275
14.9000	295
14.9200	284
14.9400	269
14.9600	288
14.9800	297
15.0000	276
15.0200	271
15.0400	313
15.0600	267
15.0800	287
15.1000	309
15.1200	310
15.1400	272
15.1600	280
15.1800	294
15.2000	324
15.2200	290
15.2400	285
15.2600	305
15.2800	291
15.3000	289
15.3200	303
15.3400	289
15.3600	316
15.3800	294
15.4000	309
15.4200	320
15.4400	293
15.4600	298
15.4800	305
15.5000	321
15.5200	345
15.5400	309
15.5600	323
15.5800	340
15.6000	324
15.6200	334
15.6400	368
15.6600	354
15.6800	342
15.7000	375
15.7200	309
15.7400	359
15.7600	372
15.7800	358
15.8000	344
15.8200	367
15.8400	366
15.8600	366
15.8800	338
15.9000	378
15.9200	344
15.9400	374
15.9600	398
15.9800	387
16.0000	386
16.0200	380
16.0400	365
16.0600	396
16.0800	408
16.1000	413
16.1200	401
16.1400	402
16.1600	363
16.1800	415
16.2000	422
16.2200	401
16.2400	403
16.2600	375
16.2800	397
16.3000	415
16.3200	385
16.3400	398
16.3600	381
16.3800	411
16.4000	368
16.4200	402
16.4400	413
16.4600	378
16.4800	374
16.5000	342
16.5200	378
16.5400	352
16.5600	365
16.5800	378
16.6000	313
16.6200	371
16.6400	351
16.6600	341
16.6800	307
16.7000	335
16.7200	309
16.7400	320
16.7600	367
16.7800	336
16.8000	325
16.8200	340
16.8400	341
16.8600	334
16.8800	311
16.9000	311
16.9200	287
16.9400	313
16.9600	322
16.9800	294
17.0000	310
17.0200	332
17.0400	321
17.0600	278
17.0800	321
17.1000	282
17.1200	306
17.1400	300
17.1600	258
17.1800	303
17.2000	268
17.2200	300
17.2400	283
17.2600	275
17.2800	287
17.3000	296
17.3200	268
17.3400	266
17.3600	295
17.3800	260
17.4000	238
17.4200	288
17.4400	270
17.4600	273
17.4800	257
17.5000	286
17.5200	258
17.5400	288
17.5600	275
17.5800	290
17.6000	290
17.6200	252
17.6400	256
17.6600	277
17.6800	286
17.7000	308
17.7200	269
17.7400	269
17.7600	254
17.7800	279
17.8000	284
17.8200	284
17.8400	272
17.8600	271
17.8800	254
17.9000	275
17.9200	271
17.9400	293
17.9600	240
17.9800	257
18.0000	275
18.0200	278
18.0400	248
18.0600	287
18.0800	288
18.1000	284
18.1200	237
18.1400	271
18.1600	263
18.1800	268
18.2000	261
18.2200	277
18.2400	262
18.2600	272
18.2800	259
18.3000	274
18.3200	266
18.3400	301
18.3600	249
18.3800	272
18.4000	278
18.4200	290
18.4400	254
18.4600	277
18.4800	252
18.5000	270
18.5200	271
18.5400	299
18.5600	277
18.5800	281
18.6000	263
18.6200	280
18.6400	271
18.6600	313
18.6800	257
18.7000	285
18.7200	262
18.7400	296
18.7600	286
18.7800	294
18.8000	285
18.8200	267
18.8400	272
18.8600	273
18.8800	306
18.9000	292
18.9200	290
18.9400	273
18.9600	277
18.9800	298
19.0000	277
19.0200	281
19.0400	307
19.0600	291
19.0800	261
19.1000	315
19.1200	271
19.1400	319
19.1600	272
19.1800	279
19.2000	291
19.2200	287
19.2400	303
19.2600	291
19.2800	305
19.3000	290
19.3200	292
19.3400	289
19.3600	288
19.3800	298
19.4000	294
19.4200	280
19.4400	332
19.4600	289
19.4800	304
19.5000	294
19.5200	281
19.5400	301
19.5600	287
19.5800	305
19.6000	297
19.6200	305
19.6400	269
19.6600	258
19.6800	295
19.7000	316
19.7200	308
19.7400	293
19.7600	262
19.7800	305
19.8000	300
19.8200	290
19.8400	290
19.8600	294
19.8800	306
19.9000	269
19.9200	262
19.9400	326
19.9600	283
19.9800	289
20.0000	289
20.0200	331
20.0400	284
20.0600	281
20.0800	309
20.1000	312
20.1200	322
20.1400	285
20.1600	303
20.1800	337
20.2000	283
20.2200	308
20.2400	285
20.2600	299
20.2800	319
20.3000	286
20.3200	303
20.3400	312
20.3600	320
20.3800	301
20.4000	298
20.4200	301
20.4400	282
20.4600	286
20.4800	333
20.5000	315
20.5200	296
20.5400	309
20.5600	322
20.5800	321
20.6000	295
20.6200	313
20.6400	333
20.6600	301
20.6800	312
20.7000	308
20.7200	330
20.7400	336
20.7600	315
20.7800	340
20.8000	294
20.8200	333
20.8400	281
20.8600	315
20.8800	328
20.9000	288
20.9200	314
20.9400	300
20.9600	305
20.9800	284
21.0000	301
21.0200	317
21.0400	317
21.0600	327
21.0800	321
21.1000	332
21.1200	332
21.1400	276
21.1600	355
21.1800	331
21.2000	320
21.2200	350
21.2400	327
21.2600	313
21.2800	319
21.3000	338
21.3200	349
21.3400	329
21.3600	326
21.3800	346
21.4000	340
21.4200	362
21.4400	345
21.4600	344
21.4800	348
21.5000	324
21.5200	330
21.5400	328
21.5600	333
21.5800	330
21.6000	307
21.6200	332
21.6400	349
21.6600	303
21.6800	319
21.7000	336
21.7200	307
21.7400	333
21.7600	320
21.7800	311
21.8000	292
21.8200	286
21.8400	325
21.8600	308
21.8800	318
21.9000	337
21.9200	303
21.9400	327
21.9600	328
21.9800	332
22.0000	351
22.0200	317
22.0400	352
22.0600	295
22.0800	323
22.1000	339
22.1200	298
22.1400	293
22.1600	291
22.1800	324
22.2000	352
22.2200	361
22.2400	312
22.2600	326
22.2800	310
22.3000	334
22.3200	317
22.3400	337
22.3600	343
22.3800	329
22.4000	308
22.4200	313
22.4400	319
22.4600	300
22.4800	282
22.5000	319
22.5200	316
22.5400	342
22.5600	312
22.5800	306
22.6000	316
22.6200	320
22.6400	354
22.6600	305
22.6800	366
22.7000	300
22.7200	303
22.7400	316
22.7600	350
22.7800	330
22.8000	309
22.8200	324
22.8400	336
22.8600	318
22.8800	308
22.9000	357
22.9200	302
22.9400	333
22.9600	311
22.9800	322
23.0000	329
23.0200	296
23.0400	292
23.0600	304
23.0800	333
23.1000	338
23.1200	334
23.1400	331
23.1600	357
23.1800	307
23.2000	297
23.2200	350
23.2400	337
23.2600	316
23.2800	299
23.3000	331
23.3200	361
23.3400	338
23.3600	309
23.3800	340
23.4000	327
23.4200	296
23.4400	321
23.4600	297
23.4800	340
23.5000	284
23.5200	270
23.5400	301
23.5600	337
23.5800	338
23.6000	311
23.6200	331
23.6400	328
23.6600	331
23.6800	283
23.7000	290
23.7200	350
23.7400	324
23.7600	304
23.7800	331
23.8000	312
23.8200	331
23.8400	281
23.8600	290
23.8800	304
23.9000	320
23.9200	321
23.9400	329
23.9600	283
23.9800	320
24.0000	331
24.0200	293
24.0400	331
24.0600	310
24.0800	347
24.1000	337
24.1200	319
24.1400	324
24.1600	292
24.1800	318
24.2000	291
24.2200	311
24.2400	304
24.2600	337
24.2800	318
24.3000	287
24.3200	304
24.3400	321
24.3600	327
24.3800	322
24.4000	283
24.4200	324
24.4400	322
24.4600	325
24.4800	315
24.5000	286
24.5200	346
24.5400	279
24.5600	308
24.5800	303
24.6000	309
24.6200	356
24.6400	319
24.6600	287
24.6800	313
24.7000	293
24.7200	286
24.7400	288
24.7600	355
24.7800	322
24.8000	279
24.8200	328
24.8400	332
24.8600	313
24.8800	302
24.9000	286
24.9200	295
24.9400	302
24.9600	306
24.9800	293
25.0000	309
25.0200	275
25.0400	288
25.0600	285
25.0800	296
25.1000	316
25.1200	295
25.1400	311
25.1600	294
25.1800	294
25.2000	287
25.2200	300
25.2400	309
25.2600	290
25.2800	260
25.3000	295
25.3200	314
25.3400	299
25.3600	288
25.3800	284
25.4000	305
25.4200	284
25.4400	273
25.4600	275
25.4800	304
25.5000	305
25.5200	298
25.5400	281
25.5600	312
25.5800	341
25.6000	302
25.6200	310
25.6400	301
25.6600	298
25.6800	279
25.7000	319
25.7200	298
25.7400	291
25.7600	272
25.7800	253
25.8000	290
25.8200	300
25.8400	296
25.8600	289
25.8800	297
25.9000	304
25.9200	254
25.9400	283
25.9600	301
25.9800	346
26.0000	290
26.0200	267
26.0400	314
26.0600	311
26.0800	271
26.1000	252
26.1200	278
26.1400	324
26.1600	272
26.1800	278
26.2000	307
26.2200	288
26.2400	262
26.2600	265
26.2800	287
26.3000	308
26.3200	291
26.3400	269
26.3600	277
26.3800	304
26.4000	297
26.4200	262
26.4400	270
26.4600	286
26.4800	285
26.5000	292
26.5200	282
26.5400	287
26.5600	265
26.5800	277
26.6000	289
26.6200	278
26.6400	266
26.6600	284
26.6800	293
26.7000	277
26.7200	261
26.7400	278
26.7600	266
26.7800	263
26.8000	300
26.8200	261
26.8400	308
26.8600	267
26.8800	275
26.9000	280
26.9200	300
26.9400	257
26.9600	276
26.9800	298
27.0000	276
27.0200	281
27.0400	288
27.0600	262
27.0800	294
27.1000	304
27.1200	285
27.1400	269
27.1600	294
27.1800	298
27.2000	270
27.2200	273
27.2400	304
27.2600	272
27.2800	326
27.3000	285
27.3200	314
27.3400	319
27.3600	290
27.3800	306
27.4000	297
27.4200	302
27.4400	295
27.4600	292
27.4800	293
27.5000	302
27.5200	273
27.5400	285
27.5600	278
27.5800	310
27.6000	260
27.6200	247
27.6400	292
27.6600	319
27.6800	285
27.7000	284
27.7200	284
27.7400	305
27.7600	267
27.7800	256
27.8000	251
27.8200	268
27.8400	270
27.8600	254
27.8800	255
27.9000	290
27.9200	253
27.9400	231
27.9600	241
27.9800	283
28.0000	261
28.0200	280
28.0400	239
28.0600	258
28.0800	297
28.1000	235
28.1200	227
28.1400	265
28.1600	258
28.1800	223
28.2000	256
28.2200	258
28.2400	264
28.2600	213
28.2800	249
28.3000	243
28.3200	238
28.3400	250
28.3600	248
28.3800	249
28.4000	253
28.4200	254
28.4400	250
28.4600	247
28.4800	266
28.5000	268
28.5200	244
28.5400	291
28.5600	265
28.5800	253
28.6000	230
28.6200	257
28.6400	269
28.6600	227
28.6800	247
28.7000	237
28.7200	274
28.7400	197
28.7600	207
28.7800	253
28.8000	289
28.8200	232
28.8400	230
28.8600	236
28.8800	254
28.9000	234
28.9200	219
28.9400	261
28.9600	224
28.9800	237
29.0000	222
29.0200	239
29.0400	245
29.0600	274
29.0800	268
29.1000	271
29.1200	265
29.1400	224
29.1600	250
29.1800	232
29.2000	270
29.2200	255
29.2400	227
29.2600	222
29.2800	271
29.3000	273
29.3200	221
29.3400	235
29.3600	270
29.3800	234
29.4000	207
29.4200	238
29.4400	203
29.4600	223
29.4800	215
29.5000	235
29.5200	232
29.5400	231
29.5600	214
29.5800	237
29.6000	236
29.6200	226
29.6400	246
29.6600	199
29.6800	234
29.7000	221
29.7200	221
29.7400	278
29.7600	253
29.7800	247
29.8000	202
29.8200	255
29.8400	276
29.8600	226
29.8800	234
29.9000	246
29.9200	249
29.9400	265
29.9600	227
29.9800	265
30.0000	231
30.0200	268
30.0400	235
30.0600	231
30.0800	237
30.1000	256
30.1200	274
30.1400	285
30.1600	292
30.1800	282
30.2000	287
30.2200	329
30.2400	347
30.2600	318
30.2800	328
30.3000	312
30.3200	380
30.3400	352
30.3600	311
30.3800	366
30.4000	411
30.4200	348
30.4400	324
30.4600	366
30.4800	370
30.5000	381
30.5200	311
30.5400	355
30.5600	376
30.5800	332
30.6000	308
30.6200	307
30.6400	315
30.6600	263
30.6800	263
30.7000	280
30.7200	269
30.7400	292
30.7600	237
30.7800	226
30.8000	251
30.8200	259
30.8400	224
30.8600	210
30.8800	272
30.9000	254
30.9200	200
30.9400	218
30.9600	240
30.9800	235
31.0000	216
31.0200	233
31.0400	203
31.0600	221
31.0800	216
31.1000	214
31.1200	234
31.1400	234
31.1600	202
31.1800	188
31.2000	222
31.2200	217
31.2400	219
31.2600	180
31.2800	239
31.3000	208
31.3200	218
31.3400	191
31.3600	230
31.3800	236
31.4000	193
31.4200	192
31.4400	214
31.4600	233
31.4800	205
31.5000	201
31.5200	198
31.5400	210
31.5600	213
31.5800	178
31.6000	208
31.6200	203
31.6400	221
31.6600	197
31.6800	220
31.7000	210
31.7200	180
31.7400	210
31.7600	197
31.7800	231
31.8000	229
31.8200	200
31.8400	197
31.8600	258
31.8800	226
31.9000	204
31.9200	204
31.9400	209
31.9600	193
31.9800	214
32.0000	227
32.0200	211
32.0400	196
32.0600	192
32.0800	181
32.1000	204
32.1200	227
32.1400	197
32.1600	196
32.1800	233
32.2000	169
32.2200	203
32.2400	177
32.2600	209
32.2800	190
32.3000	166
32.3200	187
32.3400	201
32.3600	197
32.3800	187
32.4000	206
32.4200	195
32.4400	206
32.4600	221
32.4800	164
32.5000	168
32.5200	173
32.5400	151
32.5600	216
32.5800	204
32.6000	197
32.6200	162
32.6400	201
32.6600	220
32.6800	168
32.7000	183
32.7200	178
32.7400	178
32.7600	161
32.7800	167
32.8000	210
32.8200	199
32.8400	195
32.8600	169
32.8800	186
32.9000	215
32.9200	188
32.9400	164
32.9600	181
32.9800	175
33.0000	186
33.0200	147
33.0400	165
33.0600	207
33.0800	151
33.1000	187
33.1200	180
33.1400	199
33.1600	169
33.1800	170
33.2000	156
33.2200	179
33.2400	207
33.2600	157
33.2800	174
33.3000	184
33.3200	171
33.3400	163
33.3600	177
33.3800	197
33.4000	176
33.4200	164
33.4400	157
33.4600	188
33.4800	180
33.5000	161
33.5200	151
33.5400	173
33.5600	188
33.5800	187
33.6000	153
33.6200	178
33.6400	174
33.6600	175
33.6800	160
33.7000	188
33.7200	191
33.7400	175
33.7600	162
33.7800	154
33.8000	186
33.8200	142
33.8400	152
33.8600	189
33.8800	157
33.9000	181
33.9200	161
33.9400	171
33.9600	170
33.9800	182
34.0000	153
34.0200	194
34.0400	194
34.0600	160
34.0800	169
34.1000	166
34.1200	170
34.1400	165
34.1600	166
34.1800	183
34.2000	185
34.2200	181
34.2400	144
34.2600	149
34.2800	177
34.3000	186
34.3200	169
34.3400	155
34.3600	157
34.3800	162
34.4000	169
34.4200	148
34.4400	172
34.4600	140
34.4800	147
34.5000	179
34.5200	150
34.5400	167
34.5600	180
34.5800	158
34.6000	165
34.6200	153
34.6400	149
34.6600	153
34.6800	153
34.7000	139
34.7200	155
34.7400	173
34.7600	152
34.7800	152
34.8000	146
34.8200	188
34.8400	159
34.8600	177
34.8800	156
34.9000	172
34.9200	161
34.9400	173
34.9600	143
34.9800	165
35.0000	176
35.0200	188
35.0400	147
35.0600	159
35.0800	156
35.1000	198
35.1200	179
35.1400	176
35.1600	197
35.1800	219
35.2000	203
35.2200	174
35.2400	207
35.2600	215
35.2800	212
35.3000	192
35.3200	226
35.3400	227
35.3600	233
35.3800	216
35.4000	208
35.4200	231
35.4400	190
35.4600	219
35.4800	218
35.5000	203
35.5200	190
35.5400	175
35.5600	190
35.5800	203
35.6000	181
35.6200	153
35.6400	170
35.6600	176
35.6800	162
35.7000	156
35.7200	185
35.7400	169
35.7600	153
35.7800	160
35.8000	164
35.8200	142
35.8400	124
35.8600	148
35.8800	161
35.9000	151
35.9200	145
35.9400	142
35.9600	140
35.9800	127
36.0000	122
36.0200	142
36.0400	163
36.0600	145
36.0800	130
36.1000	151
36.1200	132
36.1400	152
36.1600	140
36.1800	142
36.2000	132
36.2200	153
36.2400	127
36.2600	140
36.2800	136
36.3000	147
36.3200	144
36.3400	131
36.3600	158
36.3800	122
36.4000	133
36.4200	137
36.4400	126
36.4600	146
36.4800	137
36.5000	119
36.5200	139
36.5400	142
36.5600	114
36.5800	106
36.6000	137
36.6200	130
36.6400	149
36.6600	151
36.6800	135
36.7000	147
36.7200	143
36.7400	120
36.7600	130
36.7800	147
36.8000	117
36.8200	146
36.8400	130
36.8600	141
36.8800	114
36.9000	130
36.9200	127
36.9400	125
36.9600	126
36.9800	132
37.0000	129
37.0200	145
37.0400	133
37.0600	130
37.0800	157
37.1000	127
37.1200	130
37.1400	111
37.1600	120
37.1800	136
37.2000	112
37.2200	140
37.2400	139
37.2600	127
37.2800	136
37.3000	119
37.3200	126
37.3400	144
37.3600	134
37.3800	128
37.4000	149
37.4200	146
37.4400	158
37.4600	116
37.4800	145
37.5000	137
37.5200	124
37.5400	140
37.5600	136
37.5800	155
37.6000	137
37.6200	141
37.6400	114
37.6600	159
37.6800	149
37.7000	111
37.7200	153
37.7400	127
37.7600	144
37.7800	134
37.8000	119
37.8200	129
37.8400	102
37.8600	130
37.8800	126
37.9000	122
37.9200	128
37.9400	133
37.9600	127
37.9800	148
38.0000	129
38.0200	107
38.0400	133
38.0600	116
38.0800	122
38.1000	113
38.1200	131
38.1400	113
38.1600	122
38.1800	110
38.2000	117
38.2200	121
38.2400	125
38.2600	111
38.2800	117
38.3000	125
38.3200	119
38.3400	103
38.3600	107
38.3800	147
38.4000	136
38.4200	115
38.4400	112
38.4600	119
38.4800	156
38.5000	121
38.5200	108
38.5400	125
38.5600	114
38.5800	108
38.6000	128
38.6200	133
38.6400	132
38.6600	122
38.6800	127
38.7000	128
38.7200	133
38.7400	122
38.7600	120
38.7800	116
38.8000	124
38.8200	114
38.8400	110
38.8600	112
38.8800	107
38.9000	120
38.9200	117
38.9400	117
38.9600	118
38.9800	133
39.0000	111
39.0200	109
39.0400	126
39.0600	113
39.0800	116
39.1000	117
39.1200	138
39.1400	144
39.1600	112
39.1800	100
39.2000	138
39.2200	118
39.2400	112
39.2600	113
39.2800	128
39.3000	97
39.3200	124
39.3400	124
39.3600	119
39.3800	108
39.4000	114
39.4200	132
39.4400	116
39.4600	117
39.4800	111
39.5000	121
39.5200	120
39.5400	110
39.5600	106
39.5800	109
39.6000	109
39.6200	128
39.6400	115
39.6600	117
39.6800	138
39.7000	113
39.7200	124
39.7400	106
39.7600	116
39.7800	119
39.8000	97
39.8200	127
39.8400	119
39.8600	126
39.8800	118
39.9000	112
39.9200	111
39.9400	122
39.9600	106
39.9800	110
40.0000	104
40.0200	125
40.0400	115
40.0600	119
40.0800	122
40.1000	108
40.1200	112
40.1400	101
40.1600	133
40.1800	109
40.2000	110
40.2200	133
40.2400	122
40.2600	110
40.2800	129
40.3000	120
40.3200	103
40.3400	132
40.3600	103
40.3800	116
40.4000	127
40.4200	119
40.4400	96
40.4600	117
40.4800	115
40.5000	98
40.5200	119
40.5400	115
40.5600	121
40.5800	98
40.6000	109
40.6200	116
40.6400	103
40.6600	122
40.6800	105
40.7000	122
40.7200	119
40.7400	93
40.7600	116
40.7800	113
40.8000	119
40.8200	102
40.8400	121
40.8600	112
40.8800	115
40.9000	107
40.9200	94
40.9400	113
40.9600	109
40.9800	119
41.0000	98
41.0200	96
41.0400	124
41.0600	134
41.0800	104
41.1000	134
41.1200	112
41.1400	112
41.1600	102
41.1800	104
41.2000	114
41.2200	100
41.2400	112
41.2600	101
41.2800	131
41.3000	119
41.3200	111
41.3400	115
41.3600	118
41.3800	113
41.4000	110
41.4200	112
41.4400	121
41.4600	126
41.4800	125
41.5000	107
41.5200	120
41.5400	111
41.5600	98
41.5800	116
41.6000	123
41.6200	121
41.6400	112
41.6600	89
41.6800	116
41.7000	118
41.7200	113
41.7400	114
41.7600	109
41.7800	120
41.8000	110
41.8200	100
41.8400	121
41.8600	98
41.8800	98
41.9000	98
41.9200	115
41.9400	112
41.9600	107
41.9800	129
42.0000	99
42.0200	110
42.0400	98
42.0600	98
42.0800	96
42.1000	115
42.1200	87
42.1400	127
42.1600	93
42.1800	106
42.2000	108
42.2200	97
42.2400	106
42.2600	103
42.2800	102
42.3000	104
42.3200	111
42.3400	112
42.3600	110
42.3800	103
42.4000	98
42.4200	106
42.4400	122
42.4600	108
42.4800	115
42.5000	117
42.5200	104
42.5400	108
42.5600	116
42.5800	122
42.6000	114
42.6200	111
42.6400	95
42.6600	116
42.6800	110
42.7000	99
42.7200	95
42.7400	98
42.7600	86
42.7800	131
42.8000	111
42.8200	106
42.8400	113
42.8600	104
42.8800	113
42.9000	113
42.9200	95
42.9400	105
42.9600	97
42.9800	109
43.0000	110
43.0200	96
43.0400	105
43.0600	125
43.0800	94
43.1000	112
43.1200	99
43.1400	108
43.1600	94
43.1800	92
43.2000	102
43.2200	109
43.2400	113
43.2600	109
43.2800	114
43.3000	114
43.3200	97
43.3400	104
43.3600	96
43.3800	112
43.4000	97
43.4200	99
43.4400	95
43.4600	115
43.4800	125
43.5000	100
43.5200	112
43.5400	107
43.5600	88
43.5800	94
43.6000	96
43.6200	122
43.6400	101
43.6600	86
43.6800	107
43.7000	120
43.7200	102
43.7400	103
43.7600	102
43.7800	99
43.8000	97
43.8200	69
43.8400	89
43.8600	117
43.8800	111
43.9000	107
43.9200	100
43.9400	87
43.9600	127
43.9800	102
44.0000	96
44.0200	98
44.0400	111
44.0600	108
44.0800	95
44.1000	107
44.1200	94
44.1400	96
44.1600	112
44.1800	98
44.2000	99
44.2200	88
44.2400	99
44.2600	91
44.2800	104
44.3000	99
44.3200	103
44.3400	83
44.3600	99
44.3800	81
44.4000	90
44.4200	100
44.4400	78
44.4600	101
44.4800	89
44.5000	96
44.5200	109
44.5400	93
44.5600	103
44.5800	108
44.6000	111
44.6200	95
44.6400	96
44.6600	116
44.6800	111
44.7000	91
44.7200	78
44.7400	94
44.7600	101
44.7800	93
44.8000	80
44.8200	89
44.8400	78
44.8600	95
44.8800	106
44.9000	117
44.9200	98
44.9400	101
44.9600	90
44.9800	98
45.0000	134
45.0200	99
45.0400	91
45.0600	113
45.0800	89
45.1000	81
45.1200	90
45.1400	105
45.1600	98
45.1800	105
45.2000	80
45.2200	86
45.2400	106
45.2600	105
45.2800	103
45.3000	81
45.3200	113
45.3400	92
45.3600	101
45.3800	100
45.4000	128
45.4200	109
45.4400	112
45.4600	93
45.4800	112
45.5000	104
45.5200	114
45.5400	100
45.5600	117
45.5800	97
45.6000	99
45.6200	133
45.6400	111
45.6600	87
45.6800	101
45.7000	86
45.7200	95
45.7400	112
45.7600	103
45.7800	107
45.8000	94
45.8200	99
45.8400	91
45.8600	94
45.8800	93
45.9000	96
45.9200	88
45.9400	95
45.9600	105
45.9800	111
46.0000	95
46.0200	92
46.0400	96
46.0600	98
46.0800	95
46.1000	110
46.1200	92
46.1400	107
46.1600	93
46.1800	87
46.2000	89
46.2200	92
46.2400	91
46.2600	68
46.2800	106
46.3000	101
46.3200	82
46.3400	93
46.3600	100
46.3800	105
46.4000	81
46.4200	67
46.4400	79
46.4600	99
46.4800	101
46.5000	93
46.5200	105
46.5400	90
46.5600	94
46.5800	90
46.6000	105
46.6200	87
46.6400	66
46.6600	96
46.6800	101
46.7000	107
46.7200	102
46.7400	92
46.7600	80
46.7800	94
46.8000	99
46.8200	98
46.8400	84
46.8600	112
46.8800	82
46.9000	76
46.9200	76
46.9400	77
46.9600	85
46.9800	76
47.0000	105
47.0200	94
47.0400	88
47.0600	93
47.0800	97
47.1000	84
47.1200	77
47.1400	85
47.1600	101
47.1800	98
47.2000	92
47.2200	101
47.2400	86
47.2600	83
47.2800	76
47.3000	90
47.3200	90
47.3400	98
47.3600	73
47.3800	92
47.4000	77
47.4200	85
47.4400	84
47.4600	84
47.4800	102
47.5000	83
47.5200	93
47.5400	85
47.5600	85
47.5800	86
47.6000	81
47.6200	79
47.6400	85
47.6600	92
47.6800	93
47.7000	103
47.7200	78
47.7400	94
47.7600	87
47.7800	94
47.8000	100
47.8200	84
47.8400	88
47.8600	92
47.8800	90
47.9000	106
47.9200	86
47.9400	69
47.9600	96
47.9800	72
48.0000	89
48.0200	88
48.0400	88
48.0600	102
48.0800	100
48.1000	86
48.1200	80
48.1400	83
48.1600	83
48.1800	77
48.2000	75
48.2200	86
48.2400	104
48.2600	77
48.2800	90
48.3000	84
48.3200	88
48.3400	81
48.3600	105
48.3800	92
48.4000	86
48.4200	85
48.4400	101
48.4600	97
48.4800	79
48.5000	86
48.5200	74
48.5400	93
48.5600	93
48.5800	83
48.6000	63
48.6200	85
48.6400	88
48.6600	78
48.6800	90
48.7000	90
48.7200	100
48.7400	93
48.7600	88
48.7800	81
48.8000	96
48.8200	79
48.8400	78
48.8600	82
48.8800	89
48.9000	88
48.9200	84
48.9400	85
48.9600	91
48.9800	81
49.0000	90
49.0200	80
49.0400	87
49.0600	85
49.0800	77
49.1000	91
49.1200	95
49.1400	77
49.1600	74
49.1800	81
49.2000	81
49.2200	84
49.2400	75
49.2600	82
49.2800	89
49.3000	74
49.3200	64
49.3400	88
49.3600	95
49.3800	81
49.4000	62
49.4200	62
49.4400	82
49.4600	78
49.4800	80
49.5000	71
49.5200	74
49.5400	90
49.5600	91
49.5800	98
49.6000	77
49.6200	88
49.6400	80
49.6600	81
49.6800	85
49.7000	83
49.7200	96
49.7400	89
49.7600	81
49.7800	71
49.8000	87
49.8200	90
49.8400	88
49.8600	75
49.8800	65
49.9000	81
49.9200	76
49.9400	80
49.9600	73
49.9800	89
50.0000	82
50.0200	67
50.0400	90
50.0600	79
50.0800	86
50.1000	93
50.1200	77
50.1400	97
50.1600	89
50.1800	69
50.2000	82
50.2200	88
50.2400	95
50.2600	96
50.2800	85
50.3000	97
50.3200	88
50.3400	95
50.3600	91
50.3800	95
50.4000	96
50.4200	111
50.4400	92
50.4600	108
50.4800	101
50.5000	91
50.5200	93
50.5400	94
50.5600	96
50.5800	108
50.6000	98
50.6200	108
50.6400	112
50.6600	140
50.6800	119
50.7000	116
50.7200	142
50.7400	129
50.7600	122
50.7800	116
50.8000	121
50.8200	113
50.8400	125
50.8600	113
50.8800	117
50.9000	102
50.9200	113
50.9400	105
50.9600	111
50.9800	87
51.0000	101
51.0200	95
51.0400	104
51.0600	104
51.0800	73
51.1000	92
51.1200	99
51.1400	88
51.1600	104
51.1800	108
51.2000	86
51.2200	91
51.2400	85
51.2600	87
51.2800	89
51.3000	78
51.3200	90
51.3400	71
51.3600	88
51.3800	80
51.4000	84
51.4200	75
51.4400	85
51.4600	96
51.4800	81
51.5000	79
51.5200	69
51.5400	81
51.5600	76
51.5800	80
51.6000	79
51.6200	83
51.6400	77
51.6600	72
51.6800	86
51.7000	67
51.7200	81
51.7400	66
51.7600	75
51.7800	77
51.8000	88
51.8200	71
51.8400	70
51.8600	72
51.8800	87
51.9000	81
51.9200	71
51.9400	85
51.9600	77
51.9800	85
52.0000	62
52.0200	75
52.0400	71
52.0600	93
52.0800	81
52.1000	76
52.1200	72
52.1400	63
52.1600	81
52.1800	79
52.2000	78
52.2200	77
52.2400	79
52.2600	84
52.2800	71
52.3000	58
52.3200	82
52.3400	80
52.3600	87
52.3800	82
52.4000	84
52.4200	85
52.4400	78
52.4600	81
52.4800	71
52.5000	80
52.5200	70
52.5400	85
52.5600	63
52.5800	69
52.6000	74
52.6200	80
52.6400	81
52.6600	85
52.6800	81
52.7000	80
52.7200	73
52.7400	89
52.7600	78
52.7800	69
52.8000	66
52.8200	88
52.8400	65
52.8600	88
52.8800	87
52.9000	72
52.9200	87
52.9400	82
52.9600	74
52.9800	74
53.0000	71
53.0200	84
53.0400	93
53.0600	75
53.0800	76
53.1000	87
53.1200	59
53.1400	93
53.1600	75
53.1800	73
53.2000	76
53.2200	86
53.2400	66
53.2600	75
53.2800	72
53.3000	78
53.3200	74
53.3400	70
53.3600	77
53.3800	83
53.4000	81
53.4200	80
53.4400	87
53.4600	71
53.4800	91
53.5000	66
53.5200	63
53.5400	77
53.5600	84
53.5800	75
53.6000	77
53.6200	80
53.6400	67
53.6600	84
53.6800	69
53.7000	75
53.7200	93
53.7400	65
53.7600	68
53.7800	85
53.8000	82
53.8200	86
53.8400	69
53.8600	80
53.8800	70
53.9000	76
53.9200	72
53.9400	87
53.9600	82
53.9800	79
54.0000	72
54.0200	74
54.0400	69
54.0600	75
54.0800	83
54.1000	79
54.1200	86
54.1400	81
54.1600	62
54.1800	88
54.2000	90
54.2200	75
54.2400	92
54.2600	79
54.2800	64
54.3000	72
54.3200	85
54.3400	83
54.3600	79
54.3800	67
54.4000	64
54.4200	62
54.4400	73
54.4600	65
54.4800	70
54.5000	75
54.5200	76
54.5400	70
54.5600	63
54.5800	78
54.6000	75
54.6200	69
54.6400	67
54.6600	72
54.6800	71
54.7000	65
54.7200	72
54.7400	70
54.7600	72
54.7800	68
54.8000	63
54.8200	61
54.8400	69
54.8600	72
54.8800	72
54.9000	64
54.9200	72
54.9400	74
54.9600	66
54.9800	65
55.0000	72
55.0200	75
55.0400	67
55.0600	75
55.0800	77
55.1000	63
55.1200	62
55.1400	65
55.1600	66
55.1800	67
55.2000	68
55.2200	84
55.2400	55
55.2600	68
55.2800	80
55.3000	74
55.3200	73
55.3400	67
55.3600	69
55.3800	69
55.4000	85
55.4200	86
55.4400	88
55.4600	47
55.4800	62
55.5000	86
55.5200	68
55.5400	71
55.5600	87
55.5800	87
55.6000	61
55.6200	67
55.6400	90
55.6600	100
55.6800	59
55.7000	65
55.7200	67
55.7400	78
55.7600	69
55.7800	59
55.8000	61
55.8200	74
55.8400	63
55.8600	84
55.8800	79
55.9000	71
55.9200	66
55.9400	58
55.9600	75
55.9800	82
56.0000	61
56.0200	82
56.0400	75
56.0600	70
56.0800	67
56.1000	60
56.1200	75
56.1400	63
56.1600	60
56.1800	53
56.2000	76
56.2200	84
56.2400	95
56.2600	70
56.2800	67
56.3000	58
56.3200	72
56.3400	81
56.3600	84
56.3800	66
56.4000	100
56.4200	62
56.4400	75
56.4600	86
56.4800	83
56.5000	58
56.5200	62
56.5400	81
56.5600	79
56.5800	71
56.6000	75
56.6200	82
56.6400	67
56.6600	49
56.6800	73
56.7000	64
56.7200	75
56.7400	67
56.7600	73
56.7800	70
56.8000	88
56.8200	67
56.8400	74
56.8600	80
56.8800	67
56.9000	64
56.9200	75
56.9400	84
56.9600	65
56.9800	71
57.0000	72
57.0200	80
57.0400	74
57.0600	70
57.0800	62
57.1000	60
57.1200	63
57.1400	61
57.1600	67
57.1800	77
57.2000	66
57.2200	52
57.2400	71
57.2600	67
57.2800	82
57.3000	58
57.3200	70
57.3400	68
57.3600	62
57.3800	61
57.4000	68
57.4200	70
57.4400	64
57.4600	66
57.4800	55
57.5000	76
57.5200	68
57.5400	76
57.5600	78
57.5800	74
57.6000	73
57.6200	69
57.6400	65
57.6600	78
57.6800	53
57.7000	60
57.7200	76
57.7400	69
57.7600	80
57.7800	54
57.8000	77
57.8200	68
57.8400	59
57.8600	51
57.8800	66
57.9000	68
57.9200	53
57.9400	64
57.9600	67
57.9800	67
58.0000	71
58.0200	66
58.0400	65
58.0600	104
58.0800	62
58.1000	75
58.1200	57
58.1400	78
58.1600	63
58.1800	67
58.2000	68
58.2200	64
58.2400	55
58.2600	63
58.2800	68
58.3000	70
58.3200	61
58.3400	71
58.3600	59
58.3800	77
58.4000	76
58.4200	66
58.4400	66
58.4600	69
58.4800	64
58.5000	80
58.5200	84
58.5400	69
58.5600	81
58.5800	68
58.6000	61
58.6200	68
58.6400	73
58.6600	68
58.6800	78
58.7000	74
58.7200	66
58.7400	69
58.7600	72
58.7800	61
58.8000	59
58.8200	86
58.8400	57
58.8600	71
58.8800	73
58.9000	86
58.9200	60
58.9400	70
58.9600	67
58.9800	60
59.0000	66
59.0200	73
59.0400	86
59.0600	63
59.0800	76
59.1000	75
59.1200	73
59.1400	52
59.1600	61
59.1800	77
59.2000	62
59.2200	67
59.2400	64
59.2600	72
59.2800	70
59.3000	58
59.3200	56
59.3400	55
59.3600	68
59.3800	62
59.4000	66
59.4200	80
59.4400	77
59.4600	46
59.4800	64
59.5000	74
59.5200	50
59.5400	61
59.5600	56
59.5800	63
59.6000	67
59.6200	78
59.6400	61
59.6600	70
59.6800	69
59.7000	62
59.7200	52
59.7400	73
59.7600	73
59.7800	70
59.8000	65
59.8200	57
59.8400	73
59.8600	72
59.8800	72
59.9000	79
59.9200	66
59.9400	68
59.9600	79
59.9800	64
60.0000	84
60.0200	82
60.0400	60
60.0600	55
60.0800	69
60.1000	72
60.1200	74
60.1400	74
60.1600	68
60.1800	90
60.2000	73
60.2200	78
60.2400	75
60.2600	89
60.2800	84
60.3000	74
60.3200	84
60.3400	101
60.3600	82
60.3800	82
60.4000	84
60.4200	79
60.4400	90
60.4600	81
60.4800	73
60.5000	89
60.5200	93
60.5400	87
60.5600	109
60.5800	101
60.6000	83
60.6200	76
60.6400	86
60.6600	82
60.6800	91
60.7000	60
60.7200	72
60.7400	65
60.7600	76
60.7800	73
60.8000	65
60.8200	83
60.8400	64
60.8600	67
60.8800	74
60.9000	65
60.9200	71
60.9400	69
60.9600	82
60.9800	69
61.0000	65
61.0200	60
61.0400	63
61.0600	64
61.0800	64
61.1000	64
61.1200	63
61.1400	72
61.1600	70
61.1800	54
61.2000	70
61.2200	59
61.2400	55
61.2600	54
61.2800	63
61.3000	76
61.3200	68
61.3400	61
61.3600	78
61.3800	69
61.4000	56
61.4200	63
61.4400	57
61.4600	50
61.4800	59
61.5000	75
61.5200	63
61.5400	63
61.5600	68
61.5800	53
61.6000	76
61.6200	77
61.6400	65
61.6600	69
61.6800	67
61.7000	66
61.7200	77
61.7400	68
61.7600	72
61.7800	69
61.8000	72
61.8200	62
61.8400	66
61.8600	72
61.8800	63
61.9000	69
61.9200	72
61.9400	56
61.9600	62
61.9800	63
62.0000	67
62.0200	69
62.0400	63
62.0600	57
62.0800	55
62.1000	61
62.1200	59
62.1400	61
62.1600	61
62.1800	51
62.2000	58
62.2200	63
62.2400	58
62.2600	75
62.2800	56
62.3000	54
62.3200	67
62.3400	83
62.3600	64
62.3800	78
62.4000	50
62.4200	53
62.4400	58
62.4600	36
62.4800	52
62.5000	70
62.5200	70
62.5400	56
62.5600	53
62.5800	67
62.6000	45
62.6200	54
62.6400	69
62.6600	56
62.6800	61
62.7000	49
62.7200	60
62.7400	54
62.7600	59
62.7800	65
62.8000	42
62.8200	80
62.8400	77
62.8600	60
62.8800	69
62.9000	63
62.9200	63
62.9400	69
62.9600	77
62.9800	68
63.0000	72
63.0200	61
63.0400	53
63.0600	67
63.0800	58
63.1000	65
63.1200	61
63.1400	53
63.1600	52
63.1800	41
63.2000	49
63.2200	76
63.2400	55
63.2600	62
63.2800	50
63.3000	63
63.3200	57
63.3400	65
63.3600	48
63.3800	57
63.4000	52
63.4200	70
63.4400	57
63.4600	68
63.4800	57
63.5000	52
63.5200	57
63.5400	59
63.5600	66
63.5800	60
63.6000	71
63.6200	65
63.6400	70
63.6600	49
63.6800	44
63.7000	71
63.7200	56
63.7400	52
63.7600	75
63.7800	61
63.8000	60
63.8200	72
63.8400	61
63.8600	51
63.8800	54
63.9000	55
63.9200	45
63.9400	50
63.9600	67
63.9800	63
64.0000	42
64.0200	63
64.0400	61
64.0600	69
64.0800	49
64.1000	68
64.1200	61
64.1400	51
64.1600	59
64.1800	58
64.2000	51
64.2200	58
64.2400	52
64.2600	49
64.2800	58
64.3000	57
64.3200	53
64.3400	55
64.3600	47
64.3800	43
64.4000	64
64.4200	77
64.4400	58
64.4600	54
64.4800	60
64.5000	66
64.5200	51
64.5400	50
64.5600	53
64.5800	57
64.6000	56
64.6200	46
64.6400	55
64.6600	60
64.6800	59
64.7000	58
64.7200	57
64.7400	66
64.7600	63
64.7800	47
64.8000	60
64.8200	59
64.8400	53
64.8600	60
64.8800	56
64.9000	63
64.9200	59
64.9400	54
64.9600	50
64.9800	59
65.0000	71
65.0200	50
65.0400	62
65.0600	67
65.0800	54
65.1000	50
65.1200	55
65.1400	53
65.1600	42
65.1800	47
65.2000	53
65.2200	64
65.2400	65
65.2600	56
65.2800	53
65.3000	56
65.3200	57
65.3400	48
65.3600	55
65.3800	51
65.4000	55
65.4200	42
65.4400	54
65.4600	60
65.4800	41
65.5000	48
65.5200	56
65.5400	60
65.5600	69
65.5800	45
65.6000	56
65.6200	56
65.6400	51
65.6600	50
65.6800	60
65.7000	60
65.7200	49
65.7400	49
65.7600	50
65.7800	50
65.8000	57
65.8200	53
65.8400	44
65.8600	49
65.8800	48
65.9000	51
65.9200	56
65.9400	61
65.9600	54
65.9800	51
66.0000	62
66.0200	57
66.0400	61
66.0600	54
66.0800	57
66.1000	42
66.1200	53
66.1400	58
66.1600	52
66.1800	42
66.2000	48
66.2200	47
66.2400	54
66.2600	48
66.2800	65
66.3000	46
66.3200	55
66.3400	40
66.3600	58
66.3800	53
66.4000	53
66.4200	58
66.4400	49
66.4600	58
66.4800	39
66.5000	49
66.5200	39
66.5400	52
66.5600	46
66.5800	47
66.6000	59
66.6200	49
66.6400	57
66.6600	37
66.6800	63
66.7000	49
66.7200	61
66.7400	49
66.7600	51
66.7800	51
66.8000	59
66.8200	43
66.8400	51
66.8600	54
66.8800	60
66.9000	50
66.9200	52
66.9400	74
66.9600	47
66.9800	54
67.0000	48
67.0200	44
67.0400	52
67.0600	61
67.0800	60
67.1000	52
67.1200	43
67.1400	45
67.1600	55
67.1800	51
67.2000	61
67.2200	53
67.2400	53
67.2600	60
67.2800	46
67.3000	53
67.3200	45
67.3400	61
67.3600	50
67.3800	48
67.4000	51
67.4200	51
67.4400	44
67.4600	53
67.4800	56
67.5000	59
67.5200	46
67.5400	59
67.5600	47
67.5800	61
67.6000	68
67.6200	41
67.6400	52
67.6600	57
67.6800	57
67.7000	40
67.7200	61
67.7400	44
67.7600	49
67.7800	55
67.8000	60
67.8200	53
67.8400	64
67.8600	42
67.8800	62
67.9000	51
67.9200	42
67.9400	52
67.9600	47
67.9800	46
68.0000	36
68.0200	40
68.0400	48
68.0600	57
68.0800	34
68.1000	41
68.1200	47
68.1400	59
68.1600	48
68.1800	46
68.2000	60
68.2200	50
68.2400	54
68.2600	46
68.2800	53
68.3000	45
68.3200	45
68.3400	46
68.3600	44
68.3800	58
68.4000	39
68.4200	43
68.4400	39
68.4600	37
68.4800	37
68.5000	50
68.5200	44
68.5400	44
68.5600	38
68.5800	49
68.6000	49
68.6200	33
68.6400	38
68.6600	34
68.6800	45
68.7000	44
68.7200	41
68.7400	44
68.7600	47
68.7800	50
68.8000	58
68.8200	45
68.8400	47
68.8600	51
68.8800	49
68.9000	54
68.9200	46
68.9400	49
68.9600	47
68.9800	41
69.0000	53
69.0200	39
69.0400	39
69.0600	48
69.0800	56
69.1000	56
69.1200	51
69.1400	46
69.1600	55
69.1800	44
69.2000	48
69.2200	45
69.2400	45
69.2600	50
69.2800	44
69.3000	49
69.3200	42
69.3400	52
69.3600	54
69.3800	44
69.4000	44
69.4200	38
69.4400	45
69.4600	49
69.4800	54
69.5000	57
69.5200	44
69.5400	55
69.5600	46
69.5800	42
69.6000	47
69.6200	55
69.6400	40
69.6600	44
69.6800	45
69.7000	43
69.7200	45
69.7400	58
69.7600	43
69.7800	49
69.8000	34
69.8200	42
69.8400	52
69.8600	53
69.8800	51
69.9000	56
69.9200	55
69.9400	46
69.9600	41
69.9800	53
70.0000	55
70.0200	44
70.0400	42
70.0600	48
70.0800	47
70.1000	53
70.1200	37
70.1400	39
70.1600	46
70.1800	41
70.2000	33
70.2200	40
70.2400	40
70.2600	47
70.2800	43
70.3000	44
70.3200	47
70.3400	41
70.3600	45
70.3800	40
70.4000	47
70.4200	50
70.4400	43
70.4600	40
70.4800	31
70.5000	39
70.5200	42
70.5400	44
70.5600	42
70.5800	47
70.6000	41
70.6200	42
70.6400	43
70.6600	53
70.6800	34
70.7000	48
70.7200	55
70.7400	54
70.7600	44
70.7800	35
70.8000	46
70.8200	45
70.8400	37
70.8600	52
70.8800	44
70.9000	47
70.9200	40
70.9400	47
70.9600	46
70.9800	39
71.0000	45
71.0200	47
71.0400	40
71.0600	50
71.0800	42
71.1000	39
71.1200	46
71.1400	41
71.1600	43
71.1800	50
71.2000	38
71.2200	52
71.2400	37
71.2600	38
71.2800	41
71.3000	44
71.3200	42
71.3400	36
71.3600	52
71.3800	33
71.4000	42
71.4200	54
71.4400	48
71.4600	50
71.4800	43
71.5000	40
71.5200	43
71.5400	43
71.5600	53
71.5800	49
71.6000	37
71.6200	43
71.6400	24
71.6600	51
71.6800	44
71.7000	38
71.7200	43
71.7400	44
71.7600	47
71.7800	52
71.8000	52
71.8200	50
71.8400	44
71.8600	49
71.8800	35
71.9000	36
71.9200	34
71.9400	45
71.9600	42
71.9800	49
72.0000	45
72.0200	43
72.0400	32
72.0600	47
72.0800	39
72.1000	34
72.1200	40
72.1400	38
72.1600	27
72.1800	43
72.2000	44
72.2200	46
72.2400	40
72.2600	32
72.2800	34
72.3000	36
72.3200	34
72.3400	32
72.3600	40
72.3800	40
72.4000	39
72.4200	42
72.4400	45
72.4600	45
72.4800	42
72.5000	47
72.5200	46
72.5400	43
72.5600	39
72.5800	44
72.6000	37
72.6200	53
72.6400	49
72.6600	40
72.6800	46
72.7000	40
72.7200	28
72.7400	36
72.7600	34
72.7800	41
72.8000	43
72.8200	47
72.8400	34
72.8600	43
72.8800	47
72.9000	49
72.9200	43
72.9400	41
72.9600	36
72.9800	54
73.0000	31
73.0200	46
73.0400	48
73.0600	50
73.0800	33
73.1000	42
73.1200	43
73.1400	53
73.1600	41
73.1800	33
73.2000	41
73.2200	45
73.2400	38
73.2600	47
73.2800	44
73.3000	43
73.3200	44
73.3400	43
73.3600	51
73.3800	47
73.4000	41
73.4200	41
73.4400	51
73.4600	50
73.4800	37
73.5000	43
73.5200	34
73.5400	32
73.5600	40
73.5800	44
73.6000	39
73.6200	43
73.6400	45
73.6600	40
73.6800	37
73.7000	36
73.7200	27
73.7400	41
73.7600	48
73.7800	45
73.8000	34
73.8200	38
73.8400	35
73.8600	38
73.8800	33
73.9000	47
73.9200	36
73.9400	42
73.9600	34
73.9800	29
74.0000	46
74.0200	32
74.0400	42
74.0600	45
74.0800	32
74.1000	25
74.1200	39
74.1400	39
74.1600	28
74.1800	40
74.2000	39
74.2200	35
74.2400	37
74.2600	42
74.2800	44
74.3000	41
74.3200	45
74.3400	38
74.3600	34
74.3800	31
74.4000	37
74.4200	47
74.4400	41
74.4600	45
74.4800	44
74.5000	42
74.5200	41
74.5400	34
74.5600	43
74.5800	43
74.6000	36
74.6200	28
74.6400	41
74.6600	38
74.6800	42
74.7000	41
74.7200	45
74.7400	28
74.7600	43
74.7800	32
74.8000	33
74.8200	31
74.8400	36
74.8600	40
74.8800	28
74.9000	42
74.9200	39
74.9400	30
74.9600	40
74.9800	47
75.0000	33
75.0200	39
75.0400	43
75.0600	34
75.0800	44
75.1000	46
75.1200	49
75.1400	53
75.1600	30
75.1800	40
75.2000	42
75.2200	26
75.2400	34
75.2600	36
75.2800	39
75.3000	41
75.3200	39
75.3400	34
75.3600	42
75.3800	29
75.4000	43
75.4200	49
75.4400	31
75.4600	48
75.4800	45
75.5000	23
75.5200	48
75.5400	38
75.5600	28
75.5800	32
75.6000	24
75.6200	37
75.6400	47
75.6600	29
75.6800	32
75.7000	56
75.7200	39
75.7400	34
75.7600	29
75.7800	47
75.8000	37
75.8200	42
75.8400	43
75.8600	25
75.8800	54
75.9000	31
75.9200	33
75.9400	31
75.9600	35
75.9800	40
76.0000	23
76.0200	37
76.0400	41
76.0600	34
76.0800	39
76.1000	31
76.1200	42
76.1400	45
76.1600	44
76.1800	38
76.2000	43
76.2200	40
76.2400	33
76.2600	33
76.2800	48
76.3000	31
76.3200	27
76.3400	49
76.3600	40
76.3800	35
76.4000	41
76.4200	44
76.4400	34
76.4600	30
76.4800	32
76.5000	37
76.5200	30
76.5400	29
76.5600	28
76.5800	34
76.6000	47
76.6200	35
76.6400	42
76.6600	41
76.6800	35
76.7000	34
76.7200	28
76.7400	37
76.7600	34
76.7800	31
76.8000	35
76.8200	46
76.8400	42
76.8600	40
76.8800	39
76.9000	37
76.9200	39
76.9400	37
76.9600	34
76.9800	38
77.0000	27
77.0200	45
77.0400	30
77.0600	37
77.0800	29
77.1000	31
77.1200	36
77.1400	36
77.1600	29
77.1800	33
77.2000	27
77.2200	28
77.2400	35
77.2600	23
77.2800	29
77.3000	35
77.3200	31
77.3400	41
77.3600	42
77.3800	35
77.4000	38
77.4200	41
77.4400	25
77.4600	41
77.4800	31
77.5000	38
77.5200	30
77.5400	38
77.5600	40
77.5800	32
77.6000	27
77.6200	33
77.6400	40
77.6600	37
77.6800	26
77.7000	33
77.7200	32
77.7400	27
77.7600	28
77.7800	38
77.8000	32
77.8200	18
77.8400	36
77.8600	28
77.8800	38
77.9000	34
77.9200	34
77.9400	35
77.9600	29
77.9800	33
78.0000	29
78.0200	19
78.0400	36
78.0600	34
78.0800	25
78.1000	41
78.1200	25
78.1400	38
78.1600	40
78.1800	16
78.2000	30
78.2200	38
78.2400	39
78.2600	33
78.2800	39
78.3000	30
78.3200	40
78.3400	29
78.3600	34
78.3800	34
78.4000	29
78.4200	30
78.4400	22
78.4600	34
78.4800	35
78.5000	33
78.5200	23
78.5400	30
78.5600	47
78.5800	31
78.6000	32
78.6200	47
78.6400	38
78.6600	38
78.6800	36
78.7000	37
78.7200	35
78.7400	34
78.7600	26
78.7800	33
78.8000	32
78.8200	30
78.8400	28
78.8600	39
78.8800	27
78.9000	32
78.9200	36
78.9400	28
78.9600	31
78.9800	36
79.0000	25
79.0200	30
79.0400	33
79.0600	47
79.0800	35
79.1000	28
79.1200	39
79.1400	26
79.1600	28
79.1800	28
79.2000	24
79.2200	34
79.2400	39
79.2600	36
79.2800	26
79.3000	34
79.3200	31
79.3400	38
79.3600	32
79.3800	22
79.4000	36
79.4200	36
79.4400	32
79.4600	22
79.4800	27
79.5000	27
79.5200	25
79.5400	13
79.5600	31
79.5800	32
79.6000	34
79.6200	22
79.6400	34
79.6600	34
79.6800	21
79.7000	23
79.7200	30
79.7400	29
79.7600	37
79.7800	32
79.8000	27
79.8200	36
79.8400	32
79.8600	35
79.8800	23
79.9000	38
79.9200	21
79.9400	31
79.9600	24
79.9800	32
80.0000	26
80.0200	34
80.0400	45
80.0600	24
80.0800	34
80.1000	35
80.1200	44
80.1400	35
80.1600	18
80.1800	31
80.2000	25
80.2200	31
80.2400	31
80.2600	35
80.2800	25
80.3000	32
80.3200	33
80.3400	38
80.3600	39
80.3800	30
80.4000	39
80.4200	35
80.4400	41
80.4600	34
80.4800	29
80.5000	28
80.5200	33
80.5400	24
80.5600	37
80.5800	41
80.6000	20
80.6200	33
80.6400	36
80.6600	24
80.6800	31
80.7000	34
80.7200	27
80.7400	28
80.7600	34
80.7800	30
80.8000	40
80.8200	35
80.8400	22
80.8600	37
80.8800	29
80.9000	30
80.9200	44
80.9400	38
80.9600	34
80.9800	26
81.0000	37
81.0200	31
81.0400	30
81.0600	28
81.0800	22
81.1000	28
81.1200	23
81.1400	27
81.1600	34
81.1800	39
81.2000	47
81.2200	40
81.2400	27
81.2600	26
81.2800	30
81.3000	29
81.3200	24
81.3400	18
81.3600	39
81.3800	33
81.4000	30
81.4200	23
81.4400	33
81.4600	53
81.4800	23
81.5000	31
81.5200	33
81.5400	24
81.5600	25
81.5800	24
81.6000	33
81.6200	30
81.6400	30
81.6600	36
81.6800	28
81.7000	39
81.7200	26
81.7400	31
81.7600	33
81.7800	25
81.8000	20
81.8200	36
81.8400	36
81.8600	23
81.8800	27
81.9000	27
81.9200	30
81.9400	26
81.9600	38
81.9800	39
82.0000	30
82.0200	20
82.0400	36
82.0600	34
82.0800	45
82.1000	28
82.1200	33
82.1400	30
82.1600	35
82.1800	24
82.2000	21
82.2200	25
82.2400	37
82.2600	32
82.2800	37
82.3000	26
82.3200	29
82.3400	17
82.3600	26
82.3800	22
82.4000	28
82.4200	36
82.4400	31
82.4600	36
82.4800	21
82.5000	34
82.5200	28
82.5400	37
82.5600	29
82.5800	33
82.6000	29
82.6200	28
82.6400	30
82.6600	30
82.6800	23
82.7000	26
82.7200	36
82.7400	23
82.7600	20
82.7800	36
82.8000	29
82.8200	39
82.8400	30
82.8600	29
82.8800	37
82.9000	21
82.9200	41
82.9400	42
82.9600	31
82.9800	26
83.0000	34
83.0200	39
83.0400	31
83.0600	24
83.0800	28
83.1000	49
83.1200	32
83.1400	30
83.1600	25
83.1800	30
83.2000	27
83.2200	33
83.2400	25
83.2600	25
83.2800	28
83.3000	34
83.3200	29
83.3400	26
83.3600	29
83.3800	29
83.4000	31
83.4200	32
83.4400	26
83.4600	24
83.4800	33
83.5000	29
83.5200	34
83.5400	26
83.5600	26
83.5800	25
83.6000	28
83.6200	21
83.6400	29
83.6600	29
83.6800	37
83.7000	21
83.7200	32
83.7400	22
83.7600	16
83.7800	27
83.8000	32
83.8200	27
83.8400	29
83.8600	27
83.8800	26
83.9000	22
83.9200	28
83.9400	26
83.9600	25
83.9800	25
84.0000	21
84.0200	38
84.0400	27
84.0600	21
84.0800	27
84.1000	25
84.1200	19
84.1400	25
84.1600	27
84.1800	31
84.2000	28
84.2200	25
84.2400	34
84.2600	37
84.2800	24
84.3000	35
84.3200	24
84.3400	22
84.3600	22
84.3800	35
84.4000	26
84.4200	35
84.4400	21
84.4600	22
84.4800	35
84.5000	21
84.5200	24
84.5400	29
84.5600	24
84.5800	26
84.6000	33
84.6200	24
84.6400	21
84.6600	23
84.6800	21
84.7000	34
84.7200	28
84.7400	34
84.7600	19
84.7800	25
84.8000	31
84.8200	29
84.8400	26
84.8600	29
84.8800	20
84.9000	22
84.9200	28
84.9400	30
84.9600	25
84.9800	21
85.0000	24
85.0200	21
85.0400	22
85.0600	23
85.0800	23
85.1000	37
85.1200	30
85.1400	34
85.1600	28
85.1800	20
85.2000	28
85.2200	35
85.2400	26
85.2600	24
85.2800	18
85.3000	27
85.3200	24
85.3400	30
85.3600	29
85.3800	34
85.4000	29
85.4200	21
85.4400	21
85.4600	25
85.4800	24
85.5000	27
85.5200	21
85.5400	29
85.5600	29
85.5800	35
85.6000	26
85.6200	27
85.6400	29
85.6600	24
85.6800	24
85.7000	27
85.7200	33
85.7400	18
85.7600	37
85.7800	27
85.8000	30
85.8200	29
85.8400	37
85.8600	25
85.8800	24
85.9000	27
85.9200	32
85.9400	24
85.9600	37
85.9800	27
86.0000	24
86.0200	33
86.0400	28
86.0600	19
86.0800	30
86.1000	38
86.1200	27
86.1400	35
86.1600	18
86.1800	30
86.2000	25
86.2200	28
86.2400	32
86.2600	20
86.2800	31
86.3000	21
86.3200	18
86.3400	22
86.3600	27
86.3800	20
86.4000	28
86.4200	36
86.4400	25
86.4600	29
86.4800	21
86.5000	36
86.5200	22
86.5400	24
86.5600	27
86.5800	27
86.6000	25
86.6200	27
86.6400	31
86.6600	10
86.6800	28
86.7000	14
86.7200	25
86.7400	28
86.7600	21
86.7800	27
86.8000	24
86.8200	29
86.8400	26
86.8600	25
86.8800	27
86.9000	35
86.9200	17
86.9400	31
86.9600	32
86.9800	26
87.0000	24
87.0200	28
87.0400	22
87.0600	23
87.0800	27
87.1000	28
87.1200	24
87.1400	25
87.1600	22
87.1800	20
87.2000	18
87.2200	26
87.2400	26
87.2600	27
87.2800	31
87.3000	25
87.3200	30
87.3400	30
87.3600	30
87.3800	17
87.4000	19
87.4200	23
87.4400	25
87.4600	36
87.4800	23
87.5000	19
87.5200	19
87.5400	27
87.5600	34
87.5800	25
87.6000	25
87.6200	30
87.6400	27
87.6600	29
87.6800	14
87.7000	24
87.7200	21
87.7400	21
87.7600	20
87.7800	23
87.8000	17
87.8200	19
87.8400	22
87.8600	19
87.8800	21
87.9000	18
87.9200	17
87.9400	21
87.9600	20
87.9800	19
88.0000	20
88.0200	21
88.0400	30
88.0600	23
88.0800	24
88.1000	26
88.1200	28
88.1400	28
88.1600	15
88.1800	27
88.2000	17
88.2200	26
88.2400	22
88.2600	32
88.2800	22
88.3000	31
88.3200	31
88.3400	32
88.3600	13
88.3800	16
88.4000	30
88.4200	30
88.4400	16
88.4600	22
88.4800	13
88.5000	19
88.5200	26
88.5400	25
88.5600	25
88.5800	27
88.6000	16
88.6200	20
88.6400	29
88.6600	19
88.6800	19
88.7000	32
88.7200	24
88.7400	23
88.7600	24
88.7800	24
88.8000	29
88.8200	24
88.8400	22
88.8600	32
88.8800	33
88.9000	26
88.9200	23
88.9400	33
88.9600	19
88.9800	23
89.0000	19
89.0200	32
89.0400	27
89.0600	19
89.0800	14
89.1000	25
89.1200	22
89.1400	18
89.1600	27
89.1800	21
89.2000	19
89.2200	25
89.2400	32
89.2600	19
89.2800	28
89.3000	23
89.3200	25
89.3400	24
89.3600	18
89.3800	14
89.4000	21
89.4200	23
89.4400	22
89.4600	25
89.4800	21
89.5000	26
89.5200	25
89.5400	21
89.5600	35
89.5800	26
89.6000	22
89.6200	23
89.6400	18
89.6600	28
89.6800	18
89.7000	19
89.7200	22
89.7400	20
89.7600	18
89.7800	29
89.8000	19
89.8200	23
89.8400	24
89.8600	20
89.8800	28
89.9000	24
89.9200	26
89.9400	22
89.9600	24
89.9800	34
90.0000	22
